{
    "resourceType": "Bundle",
    "id": "4778b6b0-1fdf-4d7b-bd65-d5611ba476a3",
    "meta": {
        "lastUpdated": "2024-02-20T08:52:20.411+00:00"
    },
    "type": "searchset",
    "total": 5,
    "link": [
        {
            "relation": "self",
            "url": "{{BASE_URL}}fhir/Consent"
        }
    ],
    "entry": [
        {
            "fullUrl": "{{BASE_URL}}fhir/Consent/zib-advancedirective-01",
            "resource": {
                "resourceType": "Consent",
                "id": "zib-advancedirective-01",
                "meta": {
                    "profile": [
                        "http://nictiz.nl/fhir/StructureDefinition/zib-AdvanceDirective"
                    ]
                },
                "text": {
                    "status": "extensions",
                    "div": "<div xmlns=\"http://www.w3.org/1999/xhtml\"><table><caption>Toestemming. Patiënt: Johan Helleman. Id: 18ab6c9b-8fdf-11ec-1686-020000000000 (urn:oid:2.16.840.1.113883.2.4.3.11.999.7.6), Categorie: <span title=\"Living will and advance directive record (record artifact) (11341000146107 - SNOMED CT)\">Living will and advance directive record (record artifact)</span>, <span title=\"Niet reanimeren verklaring (NR - 2.16.840.1.113883.2.4.3.11.60.40.4.14.1)\">Niet reanimeren verklaring</span>, Status: actief<span style=\"display: block;\">Toestemminggevende partij: Janni van Putten-van der Giessen</span></caption><tfoot><tr><td colspan=\"2\">Niet-reanimerenpenning</td></tr></tfoot><tbody><tr><th>Gemaakt</th><td>9 april 2018</td></tr><tr><th>Aandoening</th><td>Amyotrofe laterale sclerose</td></tr><tr><th>Toestemminggevende partij</th><td><ul><li>Janni van Putten-van der Giessen</li></ul></td></tr></tbody></table></div>"
                },
                "extension": [
                    {
                        "url": "http://nictiz.nl/fhir/StructureDefinition/zib-AdvanceDirective-Disorder",
                        "valueReference": {
                            "reference": "Condition/zib-problem-01",
                            "display": "Amyotrofe laterale sclerose"
                        }
                    },
                    {
                        "url": "http://nictiz.nl/fhir/StructureDefinition/Comment",
                        "valueString": "Niet-reanimerenpenning"
                    }
                ],
                "identifier": {
                    "system": "urn:oid:2.16.840.1.113883.2.4.3.11.999.7.6",
                    "value": "18ab6c9b-8fdf-11ec-1686-020000000000"
                },
                "status": "active",
                "category": [
                    {
                        "coding": [
                            {
                                "system": "http://snomed.info/sct",
                                "code": "11341000146107",
                                "display": "Living will and advance directive record (record artifact)"
                            }
                        ]
                    },
                    {
                        "coding": [
                            {
                                "system": "urn:oid:2.16.840.1.113883.2.4.3.11.60.40.4.14.1",
                                "code": "NR",
                                "display": "Niet reanimeren verklaring"
                            }
                        ]
                    }
                ],
                "patient": {
                    "reference": "Patient/nl-core-patient-01",
                    "display": "Johan Helleman"
                },
                "dateTime": "2018-04-09",
                "consentingParty": [
                    {
                        "reference": "RelatedPerson/nl-core-relatedperson-01",
                        "display": "Janni van Putten-van der Giessen"
                    }
                ],
                "policy": [
                    {
                        "uri": "http://wetten.overheid.nl/"
                    }
                ]
            }
        },
        {
            "fullUrl": "{{BASE_URL}}fhir/Consent/zib-advancedirective-02",
            "resource": {
                "resourceType": "Consent",
                "id": "zib-advancedirective-02",
                "meta": {
                    "profile": [
                        "http://nictiz.nl/fhir/StructureDefinition/zib-AdvanceDirective"
                    ]
                },
                "text": {
                    "status": "extensions",
                    "div": "<div xmlns=\"http://www.w3.org/1999/xhtml\"><table><caption>Toestemming. Patiënt: Johan Helleman. Id: 18b69251-8fdf-11ec-7008-020000000000 (urn:oid:2.16.840.1.113883.2.4.3.11.999.7.6), Categorie: <span title=\"Living will and advance directive record (record artifact) (11341000146107 - SNOMED CT)\">Living will and advance directive record (record artifact)</span>, <span title=\"Niet reanimeren verklaring (NR - 2.16.840.1.113883.2.4.3.11.60.40.4.14.1)\">Niet reanimeren verklaring</span>, Status: actief<span style=\"display: block;\">Toestemminggevende partij: J.P.M. van Putten-van der Giessen</span></caption><tfoot><tr><td colspan=\"2\">Niet-reanimerenpenning</td></tr></tfoot><tbody><tr><th>Gemaakt</th><td>15 augustus 2011</td></tr><tr><th>Aandoening</th><td>ALS</td></tr><tr><th>Toestemminggevende partij</th><td><ul><li>J.P.M. van Putten-van der Giessen</li></ul></td></tr></tbody></table></div>"
                },
                "extension": [
                    {
                        "url": "http://nictiz.nl/fhir/StructureDefinition/zib-AdvanceDirective-Disorder",
                        "valueReference": {
                            "reference": "Condition/zib-problem-01",
                            "display": "ALS"
                        }
                    },
                    {
                        "url": "http://nictiz.nl/fhir/StructureDefinition/Comment",
                        "valueString": "Niet-reanimerenpenning"
                    }
                ],
                "identifier": {
                    "system": "urn:oid:2.16.840.1.113883.2.4.3.11.999.7.6",
                    "value": "18b69251-8fdf-11ec-7008-020000000000"
                },
                "status": "active",
                "category": [
                    {
                        "coding": [
                            {
                                "system": "http://snomed.info/sct",
                                "code": "11341000146107",
                                "display": "Living will and advance directive record (record artifact)"
                            }
                        ]
                    },
                    {
                        "coding": [
                            {
                                "system": "urn:oid:2.16.840.1.113883.2.4.3.11.60.40.4.14.1",
                                "code": "NR",
                                "display": "Niet reanimeren verklaring"
                            }
                        ]
                    }
                ],
                "patient": {
                    "reference": "Patient/nl-core-patient-01",
                    "display": "Johan Helleman"
                },
                "dateTime": "2011-08-15",
                "consentingParty": [
                    {
                        "reference": "RelatedPerson/nl-core-relatedperson-01",
                        "display": "J.P.M. van Putten-van der Giessen"
                    }
                ],
                "policy": [
                    {
                        "uri": "http://wetten.overheid.nl/"
                    }
                ]
            }
        },
        {
            "fullUrl": "{{BASE_URL}}fhir/Consent/zib-advancedirective-03",
            "resource": {
                "resourceType": "Consent",
                "id": "zib-advancedirective-03",
                "meta": {
                    "profile": [
                        "http://nictiz.nl/fhir/StructureDefinition/zib-AdvanceDirective"
                    ]
                },
                "text": {
                    "status": "extensions",
                    "div": "<div xmlns=\"http://www.w3.org/1999/xhtml\"><table><caption>Toestemming. Patiënt: Paul XXX_Mesker. Id: 18c1f7b3-8fdf-11ec-1027-020000000000 (urn:oid:2.16.840.1.113883.2.4.3.11.999.7.6), Categorie: <span title=\"Living will and advance directive record (record artifact) (11341000146107 - SNOMED CT)\">Living will and advance directive record (record artifact)</span>, <span title=\"Mondelinge afspraak (MON - 2.16.840.1.113883.2.4.3.11.60.40.4.14.1)\">Mondelinge afspraak</span>, Status: actief</caption><tfoot><tr><td colspan=\"2\">Mondelinge afspraak</td></tr></tfoot><tbody><tr><th>Gemaakt</th><td>9 april 2018</td></tr></tbody></table></div>"
                },
                "extension": [
                    {
                        "url": "http://nictiz.nl/fhir/StructureDefinition/Comment",
                        "valueString": "Mondelinge afspraak"
                    }
                ],
                "identifier": {
                    "system": "urn:oid:2.16.840.1.113883.2.4.3.11.999.7.6",
                    "value": "18c1f7b3-8fdf-11ec-1027-020000000000"
                },
                "status": "active",
                "category": [
                    {
                        "coding": [
                            {
                                "system": "http://snomed.info/sct",
                                "code": "11341000146107",
                                "display": "Living will and advance directive record (record artifact)"
                            }
                        ]
                    },
                    {
                        "coding": [
                            {
                                "system": "urn:oid:2.16.840.1.113883.2.4.3.11.60.40.4.14.1",
                                "code": "MON",
                                "display": "Mondelinge afspraak"
                            }
                        ]
                    }
                ],
                "patient": {
                    "reference": "Patient/nl-core-patient-02",
                    "display": "Paul XXX_Mesker"
                },
                "dateTime": "2018-04-09",
                "policy": [
                    {
                        "uri": "http://wetten.overheid.nl/"
                    }
                ]
            }
        },
        {
            "fullUrl": "{{BASE_URL}}fhir/Consent/zib-treatmentdirective-01",
            "resource": {
                "resourceType": "Consent",
                "id": "zib-treatmentdirective-01",
                "meta": {
                    "profile": [
                        "http://nictiz.nl/fhir/StructureDefinition/zib-TreatmentDirective"
                    ]
                },
                "text": {
                    "status": "extensions",
                    "div": "<div xmlns=\"http://www.w3.org/1999/xhtml\"><table><caption>Toestemming. Patiënt: Johan Helleman. Id: 1ebf6227-8fdf-11ec-1682-020000000000 (urn:oid:2.16.840.1.113883.2.4.3.11.999.7.6), Categorie: <span title=\"Treatment instructions (record artifact) (11291000146105 - SNOMED CT)\">Treatment instructions (record artifact)</span>, Status: actief</caption><tbody><tr><th>Geldigheidsperiode</th><td>Vanaf 9 april 2018</td></tr><tr><th>Geverifieerd</th><td>ja - 9 april 2018 - <span title=\"Patient (116154003 - SNOMED CT)\">Patient</span></td></tr><tr><th><span title=\"Artificial respiration (procedure) (40617009 - SNOMED CT)\">Artificial respiration (procedure)</span></th><td><span title=\"Ja, maar met beperkingen (JA_MAAR - 2.16.840.1.113883.2.4.3.11.60.40.4)\">Ja, maar met beperkingen</span></td></tr><tr><th>Niet toegestaan tenzij</th><td><div><b>Behandelrestrictie</b><div>Eerst overleg met echtgenote</div></div></td></tr></tbody></table></div>"
                },
                "extension": [
                    {
                        "url": "http://nictiz.nl/fhir/StructureDefinition/zib-TreatmentDirective-Verification",
                        "extension": [
                            {
                                "url": "Verified",
                                "valueBoolean": true
                            },
                            {
                                "url": "VerifiedWith",
                                "valueCodeableConcept": {
                                    "coding": [
                                        {
                                            "system": "http://snomed.info/sct",
                                            "code": "116154003",
                                            "display": "Patient"
                                        }
                                    ]
                                }
                            },
                            {
                                "url": "VerificationDate",
                                "valueDateTime": "2018-04-09"
                            }
                        ]
                    },
                    {
                        "url": "http://nictiz.nl/fhir/StructureDefinition/zib-TreatmentDirective-Treatment",
                        "valueCodeableConcept": {
                            "coding": [
                                {
                                    "system": "http://snomed.info/sct",
                                    "code": "40617009",
                                    "display": "Artificial respiration (procedure)"
                                }
                            ]
                        }
                    }
                ],
                "modifierExtension": [
                    {
                        "url": "http://nictiz.nl/fhir/StructureDefinition/zib-TreatmentDirective-TreatmentPermitted",
                        "valueCodeableConcept": {
                            "coding": [
                                {
                                    "system": "urn:oid:2.16.840.1.113883.2.4.3.11.60.40.4",
                                    "code": "JA_MAAR",
                                    "display": "Ja, maar met beperkingen"
                                }
                            ]
                        }
                    }
                ],
                "identifier": {
                    "system": "urn:oid:2.16.840.1.113883.2.4.3.11.999.7.6",
                    "value": "1ebf6227-8fdf-11ec-1682-020000000000"
                },
                "status": "active",
                "category": [
                    {
                        "coding": [
                            {
                                "system": "http://snomed.info/sct",
                                "code": "11291000146105",
                                "display": "Treatment instructions (record artifact)"
                            }
                        ]
                    }
                ],
                "patient": {
                    "reference": "Patient/nl-core-patient-01",
                    "display": "Johan Helleman"
                },
                "period": {
                    "start": "2018-04-09"
                },
                "policy": [
                    {
                        "uri": "http://wetten.overheid.nl/"
                    }
                ],
                "except": [
                    {
                        "extension": [
                            {
                                "url": "http://nictiz.nl/fhir/StructureDefinition/zib-TreatmentDirective-Restrictions",
                                "valueString": "Eerst overleg met echtgenote"
                            }
                        ],
                        "type": "deny"
                    }
                ]
            }
        },
        {
            "fullUrl": "{{BASE_URL}}fhir/Consent/zib-treatmentdirective-02",
            "resource": {
                "resourceType": "Consent",
                "id": "zib-treatmentdirective-02",
                "meta": {
                    "profile": [
                        "http://nictiz.nl/fhir/StructureDefinition/zib-TreatmentDirective"
                    ]
                },
                "text": {
                    "status": "extensions",
                    "div": "<div xmlns=\"http://www.w3.org/1999/xhtml\"><table><caption>Toestemming. Patiënt: Johan Helleman. Id: 1ecd5e13-8fdf-11ec-8335-020000000000 (urn:oid:2.16.840.1.113883.2.4.3.11.999.7.6), Categorie: <span title=\"Treatment instructions (record artifact) (11291000146105 - SNOMED CT)\">Treatment instructions (record artifact)</span>, Status: actief</caption><tbody><tr><th>Geldigheidsperiode</th><td>Vanaf 9 april 2018</td></tr><tr><th>Geverifieerd</th><td>ja - 9 april 2018 - <span title=\"Patient (116154003 - SNOMED CT)\">Patient</span></td></tr><tr><th><span title=\"Cardiopulmonary resuscitation (procedure) (89666000 - SNOMED CT)\">Cardiopulmonary resuscitation (procedure)</span></th><td><span title=\"Behandeling niet toegestaan en/of wenselijk (NEE - 2.16.840.1.113883.2.4.3.11.60.40.4)\">Behandeling niet toegestaan en/of wenselijk</span></td></tr><tr><th>Bron </th><td>Niet-reanimerenpenning<div>Mondelinge afspraak</div></td></tr></tbody></table></div>"
                },
                "extension": [
                    {
                        "url": "http://nictiz.nl/fhir/StructureDefinition/zib-TreatmentDirective-Verification",
                        "extension": [
                            {
                                "url": "Verified",
                                "valueBoolean": true
                            },
                            {
                                "url": "VerifiedWith",
                                "valueCodeableConcept": {
                                    "coding": [
                                        {
                                            "system": "http://snomed.info/sct",
                                            "code": "116154003",
                                            "display": "Patient"
                                        }
                                    ]
                                }
                            },
                            {
                                "url": "VerificationDate",
                                "valueDateTime": "2018-04-09"
                            }
                        ]
                    },
                    {
                        "url": "http://nictiz.nl/fhir/StructureDefinition/zib-TreatmentDirective-Treatment",
                        "valueCodeableConcept": {
                            "coding": [
                                {
                                    "system": "http://snomed.info/sct",
                                    "code": "89666000",
                                    "display": "Cardiopulmonary resuscitation (procedure)"
                                }
                            ]
                        }
                    },
                    {
                        "url": "http://nictiz.nl/fhir/StructureDefinition/consent-additionalSources",
                        "valueReference": {
                            "reference": "Consent/zib-advancedirective-03",
                            "display": "Mondelinge afspraak"
                        }
                    }
                ],
                "modifierExtension": [
                    {
                        "url": "http://nictiz.nl/fhir/StructureDefinition/zib-TreatmentDirective-TreatmentPermitted",
                        "valueCodeableConcept": {
                            "coding": [
                                {
                                    "system": "urn:oid:2.16.840.1.113883.2.4.3.11.60.40.4",
                                    "code": "NEE",
                                    "display": "Behandeling niet toegestaan en/of wenselijk"
                                }
                            ]
                        }
                    }
                ],
                "identifier": {
                    "system": "urn:oid:2.16.840.1.113883.2.4.3.11.999.7.6",
                    "value": "1ecd5e13-8fdf-11ec-8335-020000000000"
                },
                "status": "active",
                "category": [
                    {
                        "coding": [
                            {
                                "system": "http://snomed.info/sct",
                                "code": "11291000146105",
                                "display": "Treatment instructions (record artifact)"
                            }
                        ]
                    }
                ],
                "patient": {
                    "reference": "Patient/nl-core-patient-01",
                    "display": "Johan Helleman"
                },
                "period": {
                    "start": "2018-04-09"
                },
                "sourceReference": {
                    "reference": "Consent/zib-advancedirective-02",
                    "display": "Niet-reanimerenpenning"
                },
                "policy": [
                    {
                        "uri": "http://wetten.overheid.nl/"
                    }
                ]
            }
        }
    ]
}
